Folder: Photothermal_Study_CQDs

Note: 5-17-22-PTPCR-30s72.txt
Please wait for the temperature to reach 95
0 , 25.76 , 0
1 , 25.76 , 0
2 , 25.76 , 0
3 , 25.51 , 0
4 , 24.74 , 0
5 , 25.00 , 0
6 , 26.78 , 0
7 , 32.91 , 0
8 , 43.62 , 0
9 , 50.51 , 0
10 , 55.87 , 0
11 , 57.66 , 0
12 , 66.33 , 0
13 , 69.65 , 0
14 , 72.46 , 0
15 , 72.97 , 0
16 , 69.39 , 0
17 , 66.08 , 0
18 , 69.90 , 0
19 , 79.34 , 0
20 , 82.66 , 0
21 , 84.70 , 0
22 , 87.00 , 0
23 , 89.04 , 0
24 , 91.08 , 0
25 , 93.63 , 0
26 , 94.91 , 0
Temperature has reached 95, please wait 60s for the initial denaturing to complete
27 , 94.91 , 0
28 , 89.30 , 0
Initial Denaturing has completed, Amplification Loop will start now
Going to Denaturing Temperature
29 , 89.55 , 1
30 , 96.69 , 1
Denaturing DNA Now
31 , 98.99 , 1
32 , 95.67 , 1
33 , 96.69 , 1
34 , 97.20 , 1
35 , 97.46 , 1
36 , 97.72 , 1
Going to Extension Temperature
37 , 98.23 , 1
38 , 87.25 , 1
39 , 83.43 , 1
40 , 78.58 , 1
41 , 73.73 , 1
42 , 70.16 , 1
43 , 66.84 , 1
Extending DNA Now
44 , 64.04 , 1
45 , 63.01 , 1
46 , 65.57 , 1
47 , 66.33 , 1
48 , 67.86 , 1
49 , 68.88 , 1
50 , 69.65 , 1
51 , 70.92 , 1
52 , 71.69 , 1
53 , 71.95 , 1
54 , 72.20 , 1
55 , 72.46 , 1
56 , 71.43 , 1
57 , 71.18 , 1
58 , 71.18 , 1
59 , 70.41 , 1
60 , 70.92 , 1
61 , 70.67 , 1
62 , 70.67 , 1
63 , 70.41 , 1
64 , 70.16 , 1
65 , 69.90 , 1
66 , 69.65 , 1
67 , 70.92 , 1
68 , 70.92 , 1
69 , 71.18 , 1
70 , 70.67 , 1
71 , 71.18 , 1
72 , 70.92 , 1
73 , 71.43 , 1
74 , 71.18 , 1
Going to Denaturing Temperature
75 , 71.95 , 2
76 , 82.15 , 2
77 , 85.72 , 2
78 , 87.51 , 2
79 , 89.30 , 2
80 , 91.08 , 2
81 , 92.61 , 2
82 , 94.91 , 2
Denaturing DNA Now
83 , 96.18 , 2
84 , 93.89 , 2
85 , 94.14 , 2
86 , 95.16 , 2
87 , 96.18 , 2
Going to Extension Temperature
88 , 96.95 , 2
89 , 85.72 , 2
90 , 82.15 , 2
91 , 77.56 , 2
92 , 72.71 , 2
93 , 69.14 , 2
Extending DNA Now
94 , 65.57 , 2
95 , 64.55 , 2
96 , 66.84 , 2
97 , 67.10 , 2
98 , 69.14 , 2
99 , 69.65 , 2
100 , 70.92 , 2
101 , 71.95 , 2
102 , 72.20 , 2
103 , 72.97 , 2
104 , 71.18 , 2
105 , 71.18 , 2
106 , 71.43 , 2
107 , 71.43 , 2
108 , 71.18 , 2
109 , 70.67 , 2
110 , 71.18 , 2
111 , 70.92 , 2
112 , 70.92 , 2
113 , 70.41 , 2
114 , 69.90 , 2
115 , 69.90 , 2
116 , 70.41 , 2
117 , 70.92 , 2
118 , 71.43 , 2
119 , 70.92 , 2
120 , 71.18 , 2
121 , 71.69 , 2
122 , 71.18 , 2
123 , 71.43 , 2
124 , 71.69 , 2
Going to Denaturing Temperature
125 , 71.43 , 3
126 , 82.92 , 3
127 , 85.47 , 3
128 , 87.00 , 3
129 , 88.53 , 3
130 , 90.32 , 3
131 , 91.85 , 3
132 , 93.89 , 3
133 , 95.42 , 3
Denaturing DNA Now
134 , 97.20 , 3
135 , 94.65 , 3
136 , 95.16 , 3
137 , 95.93 , 3
138 , 96.44 , 3
139 , 97.46 , 3
Going to Extension Temperature
140 , 97.20 , 3
141 , 86.74 , 3
142 , 82.41 , 3
143 , 77.81 , 3
144 , 73.48 , 3
145 , 69.14 , 3
Extending DNA Now
146 , 66.33 , 3
147 , 65.31 , 3
148 , 67.10 , 3
149 , 67.35 , 3
150 , 68.63 , 3
151 , 69.90 , 3
152 , 70.92 , 3

Note: 5-17-22-PTPCR.txt
Please wait for the temperature to reach 95
0 , 23.98 , 0
1 , 23.98 , 0
2 , 23.98 , 0
3 , 25.00 , 0
4 , 27.04 , 0
5 , 30.61 , 0
6 , 33.16 , 0
7 , 35.71 , 0
8 , 52.04 , 0
9 , 63.53 , 0
10 , 50.51 , 0
11 , 64.80 , 0
12 , 69.90 , 0
13 , 75.77 , 0
14 , 80.11 , 0
15 , 81.39 , 0
16 , 83.43 , 0
17 , 85.21 , 0
18 , 86.49 , 0
19 , 88.79 , 0
20 , 89.81 , 0
21 , 90.06 , 0
22 , 91.34 , 0
23 , 92.61 , 0
24 , 94.14 , 0
Temperature has reached 95, please wait 60s for the initial denaturing to complete
25 , 95.67 , 0
26 , 91.59 , 0
Initial Denaturing has completed, Amplification Loop will start now
Going to Denaturing Temperature
27 , 92.61 , 1
28 , 98.74 , 1
Denaturing DNA Now
29 , 100.01 , 1
30 , 95.93 , 1
Going to Extension Temperature
31 , 96.18 , 1
32 , 81.90 , 1
33 , 77.81 , 1
34 , 76.54 , 1
35 , 73.99 , 1
36 , 71.43 , 1
37 , 67.61 , 1
38 , 64.29 , 1
39 , 60.46 , 1
40 , 57.40 , 1
Extending DNA Now
41 , 54.85 , 1
42 , 54.85 , 1
43 , 60.46 , 1
44 , 61.74 , 1
45 , 63.01 , 1
46 , 64.80 , 1
47 , 63.78 , 1
48 , 64.55 , 1
49 , 64.55 , 1
50 , 64.80 , 1
51 , 65.31 , 1
52 , 64.80 , 1
Going to Denaturing Temperature
53 , 65.31 , 2
54 , 81.64 , 2
55 , 83.17 , 2
56 , 84.70 , 2
57 , 86.23 , 2
58 , 88.79 , 2
59 , 90.83 , 2
60 , 93.12 , 2
61 , 95.16 , 2
Denaturing DNA Now
62 , 96.95 , 2
63 , 92.36 , 2
Going to Extension Temperature
64 , 93.38 , 2
65 , 78.32 , 2
66 , 73.99 , 2
67 , 71.18 , 2
68 , 67.86 , 2
69 , 64.80 , 2
70 , 61.74 , 2
71 , 58.93 , 2
Extending DNA Now
72 , 56.89 , 2
73 , 57.91 , 2
74 , 63.01 , 2
75 , 64.04 , 2
76 , 63.78 , 2
77 , 64.04 , 2
78 , 65.57 , 2
79 , 66.33 , 2
80 , 66.59 , 2
81 , 67.10 , 2
82 , 66.84 , 2
83 , 67.10 , 2
Going to Denaturing Temperature
84 , 67.61 , 3
85 , 85.21 , 3
86 , 87.00 , 3
87 , 88.27 , 3
88 , 89.81 , 3
89 , 91.34 , 3
90 , 93.63 , 3
91 , 95.42 , 3
Denaturing DNA Now
92 , 96.95 , 3
93 , 93.63 , 3
Going to Extension Temperature
94 , 94.91 , 3
95 , 77.30 , 3
96 , 73.99 , 3
97 , 69.90 , 3
98 , 66.59 , 3
99 , 63.78 , 3
100 , 60.97 , 3
101 , 58.68 , 3
Extending DNA Now
102 , 56.64 , 3
103 , 57.40 , 3
104 , 63.53 , 3
105 , 65.31 , 3
106 , 64.80 , 3
107 , 65.31 , 3
108 , 66.59 , 3
109 , 67.10 , 3
110 , 66.84 , 3
111 , 67.10 , 3
112 , 67.35 , 3
113 , 67.61 , 3
Going to Denaturing Temperature
114 , 68.12 , 4
115 , 87.51 , 4
116 , 89.55 , 4
117 , 90.57 , 4
118 , 92.61 , 4
119 , 94.40 , 4
Denaturing DNA Now
120 , 97.20 , 4
121 , 92.61 , 4
Going to Extension Temperature
122 , 93.63 , 4
123 , 75.26 , 4
124 , 71.18 , 4
125 , 68.12 , 4
126 , 64.55 , 4
127 , 62.25 , 4
128 , 59.70 , 4
Extending DNA Now
129 , 57.15 , 4
130 , 59.19 , 4
131 , 64.55 , 4
132 , 65.82 , 4
133 , 65.06 , 4
134 , 65.57 , 4
135 , 65.57 , 4
136 , 66.84 , 4
137 , 67.10 , 4
138 , 67.61 , 4
139 , 67.61 , 4
140 , 67.61 , 4
Going to Denaturing Temperature
141 , 67.61 , 5
142 , 87.00 , 5
143 , 89.04 , 5
144 , 89.81 , 

Note: README.md
# Photothermal_Study_CQDs
Data represented here is the steady state analysis of multicolor carbon quantum dots from red to violet at different concentrations using different laser powers
CQD_colors = ['red', 'orange', 'yellow', 'green', 'cyan', 'blue', 'violet']
CQD_concentrations = ['0.75x', '2,5x', '5x', '10x']
Laser_duty_cycle = [20, 40, 60, 80, 100]

File: XRD-OCQD.txt
10	333
10.24	266
10.48	233
10.72	164
10.96	193
11.2	166
11.44	179
11.68	175
11.92	190
12.16	184
12.4	156
12.64	193
12.88	191
13.12	197
13.36	205
13.6	206
13.84	206
14.08	187
14.32	214
14.56	208
14.8	194
15.04	208
15.28	206
15.52	212
15.76	239
16	229
16.24	252
16.48	228
16.72	247
16.96	231
17.2	228
17.44	345
17.68	395
17.92	248
18.16	244
18.4	254
18.64	284
18.88	278
19.12	265
19.36	253
19.6	530
19.84	270
20.08	240
20.32	243
20.56	233
20.8	228
21.04	252
21.28	259
21.52	265
21.76	266
22	268
22.24	233
22.48	224
22.72	218
22.96	233
23.2	240
23.44	290
23.68	277
23.92	189
24.16	273
24.4	260
24.64	201
24.88	214
25.12	236
25.36	237
25.6	229
25.84	223
26.08	254
26.32	288
26.56	257
26.8	216
27.04	263
27.28	258
27.52	217
27.76	233
28	204
28.24	262
28.48	325
28.72	243
28.96	269
29.2	265
29.44	258
29.68	243
29.92	214
30.16	228
30.4	238
30.64	239
30.88	263
31.12	308
31.36	228
31.6	272
31.84	264
32.08	262
32.32	237
32.56	232
32.8	223
33.04	313
33.28	263
33.52	284
33.76	274
34	270
34.24	246
34.48	241
34.72	237
34.96	250
35.2	241
35.44	252
35.68	263
35.92	243
36.16	223
36.4	250
36.64	242
36.88	199
37.12	233
37.36	239
37.6	211
37.84	205
38.08	231
38.32	514
38.56	532
38.8	240
39.04	213
39.28	223
39.52	226
39.76	211
40	202
40.24	212
40.48	229
40.72	216
40.96	206
41.2	213
41.44	189
41.68	166
41.92	180
42.16	187
42.4	182
42.64	179
42.88	173
43.12	179
43.36	161
43.6	193
43.84	187
44.08	209
44.32	212
44.56	386
44.8	366
45.04	172
45.28	184
45.52	151
45.76	137
46	155
46.24	176
46.48	179
46.72	175
46.96	177
47.2	155
47.44	136
47.68	149
47.92	141
48.16	160
48.4	142
48.64	144
48.88	159
49.12	142
49.36	152
49.6	129
49.84	126
50.08	141
50.32	146
50.56	118
50.8	97
51.04	131
51.28	128
51.52	150
51.76	113
52	137
52.24	116
52.48	114
52.72	100
52.96	117
53.2	115
53.44	129
53.68	101
53.92	125
54.16	119
54.4	120
54.64	115
54.88	105
55.12	98
55.36	106
55.6	103
55.84	101
56.08	116
56.32	107
56.56	94
56.8	92
57.04	98
57.28	91
57.52	93
57.76	106
58	107
58.24	85
58.48	79
58.72	95
58.96	86
59.2	82
59.44	89
59.68	92
59.92	86
60.16	89
60.4	82
60.64	81
60.88	83
61.12	71
61.36	85
61.6	86
61.84	92
62.08	79
62.32	89
62.56	87
62.8	97
63.04	73
63.28	89
63.52	84
63.76	69
64	74
64.24	85
64.48	59
64.72	76
64.96	110
65.2	94
65.44	79
65.68	63
65.92	75
66.16	76
66.4	75
66.64	62
66.88	59
67.12	73
67.36	66
67.6	62
67.84	60
68.08	70
68.32	71
68.56	62
68.8	68
69.04	72
69.28	61
69.52	80
69.76	70
70	69
70.24	54
70.48	61
70.72	56
70.96	81
71.2	56
71.44	51
71.68	50
71.92	70
72.16	66
72.4	63
72.64	54
72.88	65
73.12	52
73.36	67
73.6	65
73.84	68
74.08	66
74.32	52
74.56	53
74.8	70
75.04	44
75.28	65
75.52	72
75.76	54
76	68
76.24	58
76.48	53
76.72	57
76.96	66
77.2	63
77.44	57
77.68	55
77.92	50
78.16	125
78.4	102
78.64	70
78.88	54
79.12	43
79.36	49
79.6	56
79.84	66
80	66